accx,accy,accz
-7.3275,-1.5883,7.1797
-7.4216,-1.6045,7.019
-7.5264,-1.5656,6.9649
-7.6558,-1.4982,6.9004
-7.7095,-1.4974,6.8094
-7.7168,-1.4738,6.6597
-7.7015,-1.5353,6.5052
-7.7015,-1.553,6.2008
-7.7358,-1.5703,6.1442
-7.7233,-1.4937,6.1992
-7.8827,-1.4321,6.1799
-8.1665,-1.1887,6.2408
-8.198,-1.0347,6.4456
-8.1547,-1.0112,6.6573
-8.1397,-1.0456,6.8329
-8.2372,-1.0152,6.8692
-8.0481,-1.075,6.8996
-7.635,-1.0952,6.9485
-7.534,-0.9346,7.083
-7.5603,-0.8555,7.481
-7.4233,-0.756,7.9068
-7.3214,-0.7347,8.3676
-7.343,-0.7326,8.5511
-7.5591,-0.7626,8.5073
-7.7192,-0.7947,8.4444
-7.791,-0.9182,8.8126
-7.7945,-1.1226,9.4453
-7.6794,-1.4492,10.2108
-7.3493,-1.8972,10.8679
-7.0581,-2.1335,11.2096
-7.2829,-1.9206,11.1514
-7.5627,-1.4576,10.5344
-7.6604,-1.5207,9.4887
-7.421,-1.5143,8.3306
-7.2199,-1.2484,8.0996
-6.8523,-1.1271,8.551
-6.417,-1.3467,9.5336
-5.9712,-1.9992,10.9132
-5.6359,-2.6635,12.1132
-5.7396,-3.3441,12.8076
-5.4299,-3.9977,12.7669
-5.3373,-4.3834,12.8709
-5.5573,-4.2811,12.0947
-6.3287,-4.0121,10.9044
-6.7042,-3.5732,9.7358
-6.6383,-3.0195,9.0634
-6.3093,-2.807,8.6851
-5.7654,-2.7056,8.4428
-5.276,-2.666,8.5936
-4.773,-2.6728,8.89
-4.5512,-2.7569,8.984
-4.4481,-2.8141,8.7478
-4.5,-2.8537,8.0202
-5.1208,-3.1132,7.8179
-5.2329,-3.2288,7.5792
-5.5961,-3.2657,7.6319
-6.4525,-3.4645,7.3419
-6.2799,-3.594,7.5656
-6.4197,-3.6947,7.4777
-6.9803,-3.7078,7.5501
-7.4217,-3.5251,7.198
-8.4483,-3.1319,7.1348
-7.8205,-4.2331,7.0725
-7.0605,-4.4536,6.8455
-7.1021,-3.9691,6.6899
-6.7585,-3.3055,6.8424
-6.1213,-2.9152,6.9918
-5.7045,-2.8767,7.1951
-5.6054,-2.9278,7.779
-5.8991,-2.8368,8.5962
-6.5573,-2.5586,9.1332
-6.848,-2.5194,9.4342
-6.8652,-2.6806,9.5786
-6.71,-2.5037,9.1825
-6.6873,-2.5194,9.233
-6.3517,-2.2614,8.9153
-6.4069,-1.9694,8.15
-6.577,-1.8061,7.3946
-6.6758,-1.3667,6.8277
-7.0965,-0.8355,6.9838
-7.5505,-0.8987,7.7723
-7.7612,-1.3316,8.7178
-7.8739,-1.7499,9.4889
-7.6462,-1.9275,10.1327
-7.2054,-2.0545,10.404
-6.4355,-1.9304,10.6093
-6.2027,-1.7452,11.1085
-6.6874,-1.2515,11.2297
-7.7527,-0.8478,11.3793
-8.4213,-0.7922,10.7415
-8.2729,-0.8264,9.7702
-7.4091,-0.7024,9.1388
-6.2984,-0.5006,8.9916
-5.7748,-0.5824,9.9484
-5.9563,-1.1501,11.7614
-6.344,-1.8119,13.0259
-7.0917,-2.3982,13.8371
-7.5233,-2.776,13.5073
-7.735,-3.032,12.0434
-7.8299,-3.1418,10.3427
-7.8508,-3.1186,10.3808
-7.7793,-2.5699,8.0658
-7.5623,-2.2939,7.6706
-7.5112,-2.1663,7.5204
-7.4432,-2.2021,7.9031
-7.4223,-2.3334,8.3599
-7.3964,-2.6448,8.8417
-7.406,-2.863,9.1312
-7.3977,-2.9667,9.2211
-7.2372,-2.9514,9.1073
-7.0161,-2.809,8.6254
-6.8614,-2.6259,8.0479
-6.7652,-2.4674,7.448
-6.7933,-2.3181,6.9402
-6.8084,-2.16,6.5567
-6.8473,-2.1124,6.2412
-7.0082,-2.1753,6.0691
-7.2433,-2.21,6.1641
-7.5416,-2.2677,6.4293
-7.9329,-2.3426,6.7363
-8.1695,-2.3992,7.1067
-8.0832,-2.2559,7.2195
-7.6198,-1.9846,7.0249
-7.2136,-1.8102,6.7845
-6.9497,-1.5981,6.5935
-6.8515,-1.3903,6.7625
-6.6802,-1.1725,7.1223
-6.7013,-1.1184,7.361
-6.0005,-1.6014,7.2814
-8.2374,-0.6896,7.5305
-7.276,-0.7171,7.7161
-6.9556,-1.1986,7.4397
-6.754,-1.0657,7.4829
-6.9248,-0.7338,7.739
-6.8476,-0.5549,7.9221
-6.76,-0.4631,8.127
-6.7901,-0.3953,8.4112
-6.684,-0.4075,8.8664
-6.5976,-0.5932,9.3003
-6.504,-0.7556,9.6745
-6.2456,-0.8965,10.1106
-6.0217,-1.0323,10.4587
-5.9552,-1.1423,10.8713
-6.2114,-1.155,11.0285
-6.9536,-0.8641,10.7678
-7.4732,-0.4082,10.0395
-7.3736,-0.4551,9.5006
-7.0004,-0.6948,9.4302
-6.6599,-0.8184,9.7679
-6.453,-0.9427,10.4049
-6.0236,-1.3707,11.4897
-5.6381,-2.0226,12.3735
-5.5807,-2.6157,13.1966
-5.651,-3.0127,13.5908
-5.7739,-3.2907,13.474
-5.9072,-3.3869,12.9064
-6.041,-3.2802,11.8542
-6.0473,-3.1134,10.7944
-6.0311,-3.0188,9.853
-5.9502,-2.9096,9.2957
-5.8917,-2.7803,8.8342
-5.8854,-2.6632,8.574
-5.9109,-2.6292,8.3459
-5.888,-2.6483,8.22
-5.7852,-2.702,8.0658
-5.7842,-2.767,7.8699
-5.7647,-2.791,7.6148
-5.6527,-2.8049,7.4607
-5.723,-2.7467,7.376
-5.7894,-2.7955,7.4819
-5.9544,-2.8942,7.5123
-6.1941,-3.0158,7.6178
-6.3829,-3.094,7.7914
-6.5032,-3.1177,7.8462
-6.6444,-3.0522,7.6957
-6.7285,-2.9063,7.4735
-6.6728,-2.7294,7.2415
-6.6575,-2.5762,7.1553
-6.5669,-2.3694,7.1239
-6.5262,-2.204,7.2162
-6.5874,-2.1798,7.2295
-6.5778,-2.1721,7.2625
-6.5192,-2.1638,7.3815
-6.4052,-2.1206,7.6314
-6.2859,-2.0304,7.909
-6.2788,-1.9649,8.1444
-6.2528,-1.9372,8.3598
-6.2409,-1.8691,8.5807
-6.2791,-1.7916,8.7104
-6.3098,-1.7122,8.6684
-6.2826,-1.5779,8.5826
-6.2672,-1.4248,8.4806
-6.2797,-1.3515,8.5974
-6.2525,-1.2368,8.8373
-6.2455,-1.2031,9.0963
-6.223,-1.2476,9.372
-6.204,-1.2697,9.7086
-6.1214,-1.4034,10.1442
-6.029,-1.5643,10.5447
-6.1574,-1.5766,10.9996
-6.7246,-1.1169,11.1913
-7.3405,-0.5133,10.9511
-7.4781,-0.4557,10.4563
-7.1775,-0.6879,10.2299
-6.7652,-0.9195,10.5162
-6.2698,-1.2173,11.3797
-5.8014,-1.6143,12.4519
-5.415,-2.328,13.4674
-5.4274,-2.8451,14.2948
-5.7244,-3.2833,14.608
-6.1008,-3.569,14.1466
-6.4258,-3.7651,12.7338
-6.5676,-3.7938,11.2276
-6.6818,-3.7233,9.8806
-6.6982,-3.5499,8.9139
-6.8185,-3.2799,8.1182
-7.018,-3.071,7.6174
-7.1205,-3.0127,7.5011
-7.1702,-3.0971,7.6595
-7.2455,-3.2719,7.9344
-7.3067,-3.4256,8.1344
-7.2289,-3.4391,8.2369
-7.1453,-3.3372,8.0537
-7.0228,-3.2253,7.5904
-6.883,-3.1008,7.1984
-6.7953,-2.9906,6.8639
-6.7669,-2.8805,6.5962
-6.7497,-2.8192,6.4589
-6.8295,-2.8264,6.4297
-6.8173,-2.8758,6.5369
-6.8331,-2.8595,6.5429
-6.9369,-2.9424,6.908
-7.043,-2.9423,7.0094
-7.1777,-2.9091,7.2211
-7.162,-2.9328,7.521
-7.0367,-2.903,7.6646
-6.8181,-2.7815,7.584
-6.6415,-2.5742,7.329
-6.6074,-2.4753,7.1081
-6.7091,-2.4868,6.9331
-6.8865,-2.5398,7.0558
-7.443,-2.666,7.6051
-7.8302,-2.7551,8.5533
-8.0207,-2.8459,9.4028
-7.7895,-2.9468,9.5931
-7.3367,-2.7297,8.9273
-7.3581,-2.4226,7.7675
-6.9144,-1.7901,6.5518
-6.2247,-1.057,6.1459
-5.772,-0.352,6.464
-5.7077,-0.1409,7.3128
-5.8217,-0.3872,8.7822
-5.8087,-0.7048,10.0324
-5.9001,-0.9604,11.2855
-6.0407,-1.2429,12.0816
-5.8979,-1.5266,12.603
-5.7305,-1.4204,12.6171
-5.8586,-0.6987,12.0276
-5.8838,-0.0354,11.0665
-5.4154,0.0959,10.2587
-5.0856,0.1394,9.8444
-4.9521,0.1517,9.7244
-4.7481,-0.2132,10.053
-4.5589,-0.9342,11.0351
-4.6713,-2.078,12.8101
-4.7316,-2.4616,13.2272
-4.9507,-3.2808,13.7302
-4.9582,-3.6725,13.2895
-5.1569,-3.5694,12.6193
-5.2592,-3.4106,11.7543
-5.2904,-3.3101,10.844
-5.2563,-3.3438,10.8018
-5.4404,-3.2762,9.0085
-5.5636,-3.1781,8.2079
-5.6798,-3.0412,7.6123
-5.8489,-2.8945,7.0321
-5.9427,-2.9281,6.6668
-6.097,-3.0375,6.4692
-6.0631,-3.1575,6.4094
-5.9734,-3.2471,6.4488
-5.9233,-3.249,6.6006
-5.7649,-3.2486,6.7987
-5.4416,-3.2641,7.0543
-5.3035,-3.2204,7.3267
-5.5328,-3.2441,7.5299
-5.7883,-3.3888,7.7435
-6.0613,-3.5482,7.9646
-6.3044,-3.6432,8.1604
-6.5307,-3.6565,8.3094
-6.6164,-3.574,8.3988
-6.5166,-3.4242,8.3089
-6.3946,-3.2282,8.0381
-6.2927,-2.9798,7.5765
-6.281,-2.8092,7.2283
-6.2664,-2.6375,7.0188
-6.2888,-2.525,6.971
-6.3356,-2.417,7.0645
-6.319,-2.43,7.0586
-6.4379,-2.2408,7.5716
-6.4725,-2.1265,7.7213
-6.5097,-2.1107,7.852
-6.5185,-2.1381,7.9946
-6.5853,-2.1032,8.089
-6.6888,-2.0132,8.1017
-6.7,-1.9109,8.1808
-6.6669,-1.8015,8.2693
-6.6013,-1.7398,8.5006
-6.6154,-1.7286,8.5086
-6.3258,-1.6795,9.0825
-6.2016,-1.6525,9.4597
-6.0342,-1.7338,9.955
-5.8997,-1.8687,10.3878
-5.8214,-2.0601,10.8993
-6.0037,-2.0818,11.2273
-6.679,-1.5964,11.0092
-7.2259,-1.2305,10.4053
-7.2426,-1.4341,9.867
-7.2362,-1.5968,9.6992
-7.2819,-1.6455,9.6029
-7.1255,-1.856,9.758
-6.7304,-2.2933,10.6244
-5.905,-2.3389,11.2867
-6.498,-3.1608,12.8534
-6.2686,-3.6588,12.4681
-6.4839,-3.7114,12.6539
-6.8102,-3.6718,11.6235
-6.7168,-3.7692,10.1516
-6.6732,-3.6591,9.049
-6.6363,-3.4301,8.1713
-6.5682,-3.213,7.6452
-6.5673,-2.9423,7.3302
-6.6041,-2.8607,7.3036
-6.6906,-3.0826,7.419
-6.8588,-3.2767,7.6244
-7.1322,-3.3502,7.7952
-7.2878,-3.3707,7.846
-7.3093,-3.4533,7.8229
-7.244,-3.4596,7.7176
-7.0067,-3.36,7.4459
-6.8556,-3.1932,7.0098
-6.6386,-3.0202,6.4389
-6.5505,-2.8882,6.0442
-6.5339,-2.7515,5.8189
-6.547,-2.6662,5.7945
-6.5836,-2.6245,5.9204
-6.7032,-2.5837,6.1296
-6.8608,-2.5146,6.4457
-6.9324,-2.4814,6.6568
-6.9242,-2.4781,6.8002
-6.9086,-2.4513,6.8997
-6.8069,-2.3435,7.0363
-6.7217,-2.2888,7.0668
-6.695,-2.1783,6.9892
-6.7722,-2.0481,6.9259
-6.8358,-1.9053,6.7736
-6.8889,-1.7373,6.5826
-6.8698,-1.5121,6.3267
-6.836,-1.2562,6.1223
-6.8113,-1.0249,5.8663
-6.6782,-0.8657,5.7412
-6.5916,-0.6978,5.8166
-6.7107,-0.5704,6.2139
-6.8357,-0.4946,6.9212
-6.9028,-0.6231,7.7208
-6.8495,-1.0476,8.6906
-6.8175,-1.3924,9.5787
-6.6854,-1.7124,10.6446
-6.5208,-2.0468,11.5534
-6.2961,-2.4834,12.2074
-6.2271,-2.8241,12.5025
-6.5565,-2.775,12.3946
-6.93,-2.2545,11.4532
-6.8016,-2.0525,10.2137
-6.4351,-2.2385,9.6577
-6.311,-2.3611,9.5002
-6.3761,-2.4036,9.7403
-6.2571,-2.8133,10.5502
-6.1073,-3.4485,11.497
-6.166,-4.1255,12.3512
-6.2771,-4.553,12.7502
-6.2195,-4.824,12.7892
-6.0941,-4.8309,12.2494
-5.9626,-4.6086,11.091
-5.7273,-4.3266,10.0075
-5.422,-4.0825,8.9879
-5.3382,-3.9285,8.3734
-5.4661,-3.7446,7.8873
-5.6663,-3.5958,7.5087
-5.8003,-3.4671,7.0636
-5.8426,-3.4175,6.6917
-5.8452,-3.3972,6.4808
-5.8111,-3.4344,6.4312
-5.8227,-3.509,6.4639
-5.8343,-3.5665,6.5528
-5.8667,-3.6504,6.7432
-5.8455,-3.7588,7.02
-5.763,-3.8225,7.3543
-5.6739,-3.8947,7.6372
-5.7027,-3.9036,7.8157
-5.7895,-3.8542,7.8712
-5.8456,-3.8545,7.8108
-5.9442,-3.8073,7.5725
-6.0838,-3.7358,7.2685
-6.2509,-3.5842,6.8879
-6.2478,-3.4281,6.6601
-6.2357,-3.2455,6.4823
-6.2485,-3.0933,6.3898
-6.1137,-2.9097,6.4306
-5.9732,-2.7704,6.4972
-5.7861,-2.6255,6.6251
-5.7262,-2.5736,6.7348
-5.7064,-2.5891,6.7599
-5.8296,-2.4348,6.9947
-5.8407,-2.3712,7.1393
-5.846,-2.3039,7.1974
-5.8913,-2.2327,7.3248
-5.9432,-2.1719,7.5017
-5.9866,-2.2109,7.7472
-6.0574,-2.1819,8.0001
-6.1441,-2.1039,8.5467
-5.998,-2.209,9.1738
-5.8372,-2.3558,9.6833
-5.7348,-2.4373,9.9841
-5.7249,-2.4774,10.3086
-5.7531,-2.5538,10.5672
-5.7445,-2.732,10.8943
-5.8933,-2.8636,11.1382
-6.5802,-2.5987,11.1793
-6.5857,-2.5949,11.1675
-7.2836,-2.2354,10.3977
-7.1451,-2.3715,10.0686
-7.0864,-2.3003,9.7644
-6.9908,-2.2191,9.6283
-6.639,-2.2865,9.8562
-6.6703,-2.2627,9.8261
-5.9925,-2.9043,11.5222
-6.0666,-3.2544,12.0966
-6.3391,-3.5366,12.347
-6.5962,-3.7423,12.0725
-6.7159,-3.9418,11.2252
-6.7014,-4.0508,10.2845
-6.6786,-3.9822,9.4953
-6.6979,-3.872,9.072
-6.5863,-3.7853,8.7744
-6.452,-3.8027,8.5974
-6.2622,-3.9468,8.526
-6.1739,-4.0726,8.5383
-6.1638,-4.1597,8.5062
-6.2688,-4.2051,8.3926
-6.368,-4.1794,8.115
-6.379,-4.0742,7.7789
-6.2959,-3.927,7.1605
-6.1772,-3.7707,6.5251
-5.9965,-3.4951,5.8994
-5.9352,-3.374,5.4533
-5.9886,-3.2722,5.1827
-6.0533,-3.142,5.239
-6.1703,-3.0262,5.3446
-6.1387,-2.9415,5.5639
-6.0743,-2.8152,5.843
-6.118,-2.7316,6.0029
-6.1759,-2.6644,6.0735
-6.2694,-2.6738,5.9904
-6.4145,-2.6857,5.8032
-6.5435,-2.699,5.6358
-6.6425,-2.6984,5.5845
-6.6788,-2.7102,5.6483
-6.7792,-2.6909,5.7084
-6.8509,-2.6117,5.6681
-6.9354,-2.6033,5.6597
-6.9903,-2.6459,6.1439
-6.8987,-2.7108,7.0014
-6.7418,-2.594,8.1413
-6.5839,-2.2906,9.0943
-6.3133,-2.0987,9.4425
-5.9066,-1.8682,9.2468
-5.7244,-1.4702,8.9104
-5.4819,-0.9479,8.6195
-5.1182,-0.598,8.6126
-4.6843,-0.5239,8.775
-4.5052,-0.8109,9.3573
-4.5536,-1.444,10.273
-4.8063,-2.0599,11.2538
-5.4743,-2.209,12.1847
-5.4263,-2.2589,12.1278
-6.02,-2.1971,11.6466
-5.656,-2.4449,11.0365
-5.5055,-2.3886,10.8638
-5.4956,-2.3704,11.0787
-5.3589,-2.6907,11.8297
-5.1052,-3.3096,12.6338
-4.9231,-4.0145,13.369
-4.8029,-4.4133,13.6357
-4.6337,-4.6421,13.3355
-4.5765,-4.6605,12.4995
-4.5065,-4.5516,11.6382
-4.509,-4.4428,10.9643
-4.4088,-4.3275,10.262
-4.3201,-4.3019,9.7502
-4.3072,-4.3112,9.7105
