accx,accy,accz
0.083,0.0563,0.1197
0.178,-0.0154,-0.1128
0.1592,0.0351,-0.2908
0.1046,0.0839,-0.4249
0.0287,0.081,-0.4131
0.0099,0.037,-0.3349
0.0672,0.0164,-0.3436
0.088,0.0348,-0.3525
0.0558,0.0345,-0.2851
0.0285,-0.015,-0.2469
-0.0094,-0.0404,-0.2255
-0.027,-0.0757,-0.2304
-0.0317,-0.078,-0.2544
-0.042,-0.0852,-0.2544
-0.0623,-0.1068,-0.2309
-0.0599,-0.1034,-0.1633
-0.0756,-0.1119,-0.1086
-0.0434,-0.1051,-0.0926
-0.0506,-0.1059,-0.1292
-0.0676,-0.1246,-0.2085
-0.0721,-0.1461,-0.3186
-0.0492,-0.1238,-0.326
-0.0452,-0.1147,-0.274
-0.0341,-0.083,-0.2441
-0.0504,-0.0214,-0.1598
-0.0723,0.0214,-0.1068
-0.0483,0.0347,-0.1253
-0.0142,0.0112,-0.1985
-0.0279,0.0154,-0.2137
-0.0386,-0.007,-0.1929
-0.0326,-0.0027,-0.0909
0.0229,0.0091,-0.0058
0.0649,0.0356,0.0599
0.0513,0.0353,0.0755
0.0353,0.0414,0.0579
0.0501,0.0634,0.0215
0.0473,0.0605,-0.0552
0.0614,0.0424,-0.1029
0.0643,0.0242,-0.0811
0.0465,-0.0102,-0.0618
0.0654,-0.018,-0.0713
0.0875,-0.0339,-0.0731
0.107,-0.0312,-0.0795
0.126,-0.0794,-0.0905
0.102,-0.0758,-0.1443
0.0995,-0.0801,-0.1426
0.0686,-0.1209,-0.313
0.0573,-0.1281,-0.371
0.0205,-0.1347,-0.4076
-0.0009,-0.15,-0.3989
-0.0022,-0.2051,-0.3667
-0.0119,-0.1802,-0.3707
0.0266,-0.1473,-0.3798
0.0479,-0.1441,-0.3346
0.0018,-0.1367,-0.2517
-0.0154,-0.1215,-0.2339
-0.0048,-0.0919,-0.2423
-0.0021,-0.1085,-0.2889
-0.0212,-0.118,-0.2708
-0.0449,-0.1177,-0.2025
-0.0538,-0.0832,-0.1584
-0.0526,-0.0728,-0.1549
-0.0385,-0.101,-0.156
-0.0261,-0.1197,-0.1403
-0.0109,-0.1089,-0.0889
-0.0098,-0.0711,-0.0642
-0.0091,-0.0047,-0.0633
0.0071,0.0087,-0.06
0.046,0.01,-0.0113
0.0266,0.033,0.0326
0.0494,0.0269,0.0239
0.0377,0.0223,0.0083
0.0623,-0.005,-0.0068
0.0586,0.0052,-0.0694
0.112,0.0362,-0.1796
0.1194,0.033,-0.2058
0.1247,0.0558,-0.215
0.0825,0.0551,-0.2842
0.1389,0.0305,-0.4037
0.3053,0.1169,-0.2339
0.0459,0.0243,-0.1611
-0.0791,-0.0265,-0.1809
0.0521,0.0313,-0.2192
0.0659,-0.017,-0.255
0.0001,-0.0322,-0.1446
-0.0149,-0.0512,-0.0848
-0.0082,-0.0532,-0.0755
0.0055,-0.0435,-0.0899
-0.0004,-0.0389,-0.0588
-0.0545,-0.0706,-0.0778
-0.0682,-0.0933,-0.0822
-0.0412,-0.0875,-0.0602
-0.0425,-0.0819,-0.1195
-0.0403,-0.0955,-0.1811
-0.0203,-0.1162,-0.2306
-0.014,-0.1223,-0.23
-0.015,-0.1156,-0.2297
-0.0073,-0.0729,-0.2893
0.0304,-0.0617,-0.3321
0.0198,-0.0764,-0.3177
-0.005,-0.1047,-0.3131
0.0116,-0.0679,-0.3399
0.0053,-0.0814,-0.3593
-0.0098,-0.0777,-0.355
-0.0083,-0.0629,-0.2483
-0.0168,-0.0826,-0.1304
0.0169,-0.0851,-0.0246
0.0543,-0.0619,-0.0527
0.0569,-0.0451,-0.1017
0.0061,-0.0203,-0.1765
-0.0518,-0.013,-0.239
-0.0275,0.0086,-0.2559
-0.0002,-0.0068,-0.2063
0.0268,-0.0022,-0.1498
0.037,-0.0069,-0.1079
0.0118,-0.0286,-0.0802
-0.0055,-0.0508,-0.0379
0.0205,-0.0735,-0.0504
0.003,-0.0367,-0.0843
-0.0098,-0.0363,-0.0869
0.028,-0.0357,-0.104
0.0443,-0.0422,-0.0923
0.0373,-0.0414,-0.1094
0.0109,-0.0576,-0.1575
-0.0135,-0.0454,-0.2007
0.0066,-0.0867,-0.2772
-0.0245,-0.1139,-0.2674
-0.0275,-0.1147,-0.2673
-0.0205,-0.0925,-0.2079
-0.0291,-0.1101,-0.12
-0.0294,-0.0937,-0.0658
-0.0785,-0.0773,-0.0379
-0.0641,-0.0808,-0.0885
-0.0633,-0.0709,-0.1435
-0.0597,-0.0832,-0.1695
-0.0563,-0.0831,-0.1693
-0.0919,-0.0391,-0.1384
-0.0804,-0.0237,-0.153
-0.0861,-0.0233,-0.1818
-0.0441,-0.0356,-0.2415
-0.0291,-0.0671,-0.258
-0.0552,-0.0604,-0.2578
-0.0314,-0.0247,-0.2673
-0.0149,-0.0029,-0.2626
-0.0243,-0.0167,-0.2533
0.0194,-0.0352,-0.2822
0.008,-0.0175,-0.2754
0.023,-0.0187,-0.2328
0.0398,-0.0508,-0.1615
0.0948,-0.0634,-0.1383
0.0905,-0.0853,-0.1344
0.099,-0.0707,-0.1258
0.11,-0.0252,-0.1243
0.0801,-0.0545,-0.1633
0.0499,-0.051,-0.1852
0.0436,-0.0835,-0.1976
0.0684,-0.0654,-0.1837
0.0811,-0.0707,-0.1317
0.0815,-0.063,-0.0635
0.1005,-0.0812,-0.0289
0.1233,-0.0669,-0.0731
0.1186,-0.047,-0.1645
0.0868,-0.0233,-0.2628
0.0725,-0.0286,-0.3034
0.0523,-0.0451,-0.2653
0.064,-0.0555,-0.2109
0.0827,-0.0438,-0.1711
0.074,-0.0347,-0.1576
0.0485,-0.0356,-0.1224
0.052,-0.0412,-0.0849
0.0557,-0.0518,-0.1071
0.0432,-0.0174,-0.1338
0.0048,-0.0384,-0.1699
0.0218,-0.0591,-0.1415
0.0435,-0.0553,-0.1373
0.0571,-0.0612,-0.1714
0.0365,-0.0652,-0.2125
0.0388,-0.0722,-0.2559
0.0134,-0.0962,-0.3159
-0.0035,-0.1108,-0.3592
0.0219,-0.1275,-0.4147
0.0072,-0.1745,-0.3723
0.0033,-0.1861,-0.321
0.0275,-0.2092,-0.1534
0.058,-0.2048,-0.0916
0.0182,-0.2194,-0.0633
-0.0036,-0.21,-0.0205
0.0283,-0.2028,0.0247
0.0298,-0.1982,0.0053
-0.0118,-0.1631,-0.0569
-0.0558,-0.157,-0.0854
-0.0525,-0.1108,-0.1473
-0.0061,-0.115,-0.142
-0.0393,-0.0998,-0.1154
-0.0465,-0.0941,-0.0529
-0.0346,-0.0767,-0.0118
-0.0305,-0.0647,-0.0232
-0.0412,-0.0465,-0.0438
-0.0401,-0.0387,-0.0425
-0.091,-0.0127,-0.06
-0.077,-0.0161,-0.1226
-0.0703,-0.0269,-0.1733
-0.0612,-0.0136,-0.1449
-0.0282,0.0025,-0.0952
0.0162,0.0309,-0.0768
0.0195,0.0304,-0.0751
-0.0274,0.0269,-0.1234
-0.028,0.0006,-0.1808
-0.0307,0.0047,-0.1803
-0.031,-0.0227,-0.163
-0.0219,-0.0212,-0.1577
-0.0203,-0.0169,-0.1431
0.0097,-0.0191,-0.0617
0.0701,-0.0213,-0.0186
0.0716,-0.0047,-0.0497
0.0478,0.01,-0.1185
0.046,-0.0124,-0.1772
0.0661,-0.069,-0.2356
0.0747,-0.0606,-0.2342
0.0815,-0.0757,-0.2091
0.1174,-0.0395,-0.1484
0.1174,-0.0575,-0.112
0.1337,-0.0589,-0.1378
0.1243,-0.0929,-0.1894
0.1138,-0.1158,-0.1882
0.1311,-0.1578,-0.1223
0.0891,-0.13,-0.0472
0.0985,-0.0857,-0.0486
0.0599,-0.1067,-0.1743
0.0415,-0.0448,-0.3474
0.0209,-0.0402,-0.4582
0.0448,-0.0255,-0.4717
0.0251,-0.0348,-0.4502
0.0376,-0.0352,-0.4077
0.0335,-0.0413,-0.2748
0.0077,-0.0633,-0.1543
-0.0024,-0.073,-0.0986
-0.0132,-0.0741,-0.1048
-0.003,-0.0571,-0.1321
0.0051,-0.0511,-0.166
-0.0365,-0.0307,-0.1473
-0.0277,-0.0269,-0.1669
-0.0381,-0.004,-0.1889
-0.0199,-0.0072,-0.1512
-0.0135,-0.0099,-0.0896
-0.0359,-0.0173,-0.0401
-0.0371,-0.0015,-0.043
-0.0458,-0.0132,-0.067
-0.0621,-0.0284,-0.1049
-0.0519,-0.066,-0.1473
-0.0392,-0.0486,-0.2016
-0.0503,-0.0645,-0.1914
-0.037,-0.0704,-0.21
-0.0494,-0.0469,-0.2312
-0.0363,-0.0681,-0.2431
-0.0319,-0.0651,-0.2766
-0.0635,-0.0957,-0.31
-0.065,-0.0639,-0.3292
-0.0341,-0.0633,-0.3126
0.027,-0.0504,-0.3559
-0.0225,-0.0592,-0.4185
-0.0836,-0.0943,-0.4809
-0.029,-0.0812,-0.4932
-0.0126,-0.0594,-0.4199
-0.0018,-0.0668,-0.2445
0.0175,-0.0269,-0.1129
0.0643,-0.0009,-0.0176
0.0908,-0.0023,-0.0081
0.1162,-0.0006,-0.0506
0.1174,0.0043,-0.1117
0.0997,-0.0185,-0.2199
0.0552,0.0067,-0.2587
0.0449,0.0255,-0.166
0.0536,0.0336,-0.0786
0.0832,0.0782,0.0109
0.0743,0.0335,-0.0023
0.0401,0.0379,-0.0772
-0.0216,0.0099,-0.1156
-0.0743,-0.0378,-0.0914
-0.0667,-0.0398,-0.0744
-0.0768,-0.0778,-0.0575
-0.1384,-0.0771,-0.0192
-0.005,-0.0452,0.0716
0.0476,-0.0201,0.2148
0.0483,-0.0198,0.2147
0.069,-0.0602,-0.0477
0.0986,-0.0579,-0.1439
0.0994,-0.0367,-0.2663
0.1312,-0.0025,-0.2622
0.1391,-0.0455,-0.2038
0.1289,-0.0727,-0.177
0.105,-0.0421,-0.2078
0.1216,-0.0334,-0.2336
0.1212,-0.0442,-0.2186
0.1041,-0.0527,-0.2419
0.13,-0.0589,-0.2723
0.0917,-0.051,-0.2906
0.0228,-0.0597,-0.3114
-0.012,-0.0658,-0.3202
-0.0463,-0.0881,-0.3124
-0.0728,-0.069,-0.2713
-0.0579,-0.063,-0.2211
-0.0649,-0.0585,-0.1689
-0.0968,-0.0494,-0.1789
-0.0846,-0.0432,-0.2104
-0.0567,-0.0589,-0.1987
-0.0747,-0.0431,-0.1633
-0.0738,-0.0417,-0.1638
-0.0258,-0.0548,-0.1308
-0.0071,-0.0586,-0.1575
-0.0166,-0.0868,-0.1697
-0.0546,-0.0838,-0.1795
-0.0325,-0.0756,-0.1272
0.011,-0.0385,-0.1348
0.0253,-0.0254,-0.1711
0.0083,-0.0176,-0.1978
-0.0351,-0.0266,-0.2052
-0.0522,-0.038,-0.1959
-0.0696,-0.0426,-0.2151
-0.0726,-0.0402,-0.2319
-0.0468,-0.0348,-0.1748
0.017,0.0096,-0.1298
0.037,0.0373,-0.109
0.049,0.0191,-0.1382
0.0516,0.012,-0.2055
0.0502,0.0115,-0.2054
0.0068,0.023,-0.2268
0.0161,0.0012,-0.1884
0.0016,-0.0062,-0.15
0.0233,0.0012,-0.1094
0.0165,-0.0087,-0.1188
0.0438,-0.0236,-0.1185
0.0521,-0.0359,-0.1039
0.0532,-0.0362,-0.1037
0.0219,-0.0536,-0.0915
-0.0078,-0.0425,-0.0912
-0.011,-0.0339,-0.0933
-0.0426,-0.0205,-0.0882
-0.0333,-0.0092,-0.0496
0.0241,-0.0169,0.0391
0.0578,-0.0073,0.0823
0.0584,0.0191,0.1996
0.0082,0.0264,0.2716
-0.0478,0.0349,0.198
-0.0841,0.0098,0.0585
-0.0968,-0.0199,-0.0634
-0.1082,-0.0505,-0.118
-0.1615,-0.0474,-0.1583
-0.2415,-0.0605,-0.187
-0.2484,-0.0276,-0.2423
-0.2727,-0.0334,-0.3286
-0.2766,-0.0396,-0.4555
-0.258,-0.063,-0.4914
-0.2457,-0.0857,-0.487
-0.2153,-0.0833,-0.4328
-0.1263,-0.1082,-0.3578
-0.0793,-0.1057,-0.2904
-0.0833,-0.1191,-0.245
-0.0417,-0.1375,-0.2474
-0.0119,-0.1541,-0.3022
0.0038,-0.1636,-0.3521
0.0199,-0.1677,-0.3304
0.0558,-0.1801,-0.314
0.1138,-0.1961,-0.3531
0.2038,-0.221,-0.3421
0.2114,-0.2644,-0.336
0.1908,-0.279,-0.318
0.1947,-0.262,-0.3385
0.149,-0.2155,-0.3304
0.1143,-0.1705,-0.3682
0.0937,-0.1392,-0.394
0.0777,-0.1406,-0.3985
0.0684,-0.1313,-0.3411
0.0277,-0.1181,-0.253
0.0139,-0.0944,-0.1676
-0.0073,-0.0584,-0.0464
0.0062,-0.061,0.0246
0.0033,-0.0047,0.0479
0.0418,0.0402,-0.0072
0.0126,0.081,-0.1167
0.0054,0.0895,-0.1707
0.0181,0.0813,-0.1121
0.0211,0.0855,-0.1135
0.0641,0.1232,0.0143
0.1225,0.1292,0.0249
0.2484,0.1464,0.1363
0.3615,0.1368,0.2596
0.4675,0.1073,0.3301
0.561,0.093,0.3028
0.6821,0.0744,0.1689
0.7427,0.0412,0.0192
0.7274,0.0158,-0.1394
0.6295,-0.0053,-0.2187
0.5065,-0.0093,-0.3409
0.4513,-0.0676,-0.3434
0.4044,-0.1498,-0.222
0.3777,-0.1369,-0.0664
0.2998,-0.0555,0.0316
0.1614,0.0171,-0.0514
-0.0874,-0.0757,0.1042
-0.2024,-0.1676,0.2443
-0.2717,-0.1595,0.367
-0.2962,-0.1407,0.3707
-0.3374,-0.138,0.1295
-0.4447,-0.1462,-0.0421
-0.4248,-0.1476,-0.3948
-0.4224,-0.1534,-0.5885
-0.418,-0.1772,-0.6913
-0.4572,-0.1765,-0.6345
-0.444,-0.1508,-0.5356
-0.4301,-0.1467,-0.354
-0.4588,-0.1027,-0.2328
-0.4771,-0.0948,-0.1358
-0.5224,-0.1392,-0.134
-0.5103,-0.116,-0.2107
-0.5189,-0.144,-0.22
-0.5054,-0.1496,-0.2249
-0.535,-0.1426,-0.2587
-0.6154,-0.1301,-0.2976
-0.6341,-0.1081,-0.3437
-0.6532,-0.0962,-0.4447
-0.6227,-0.1032,-0.4739
-0.5685,-0.0726,-0.3865
-0.5452,-0.0765,-0.2973
-0.5348,-0.0531,-0.2324
-0.4385,0.0035,-0.2322
-0.3648,0.0828,-0.3563
-0.3304,0.0498,-0.542
-0.3201,-0.0042,-0.6721
-0.3184,-0.0848,-0.7017
-0.1281,-0.145,-0.6072
-0.0428,-0.1235,-0.3968
0.0808,-0.1259,-0.1346
0.1425,-0.091,0.0002
0.2169,-0.0732,0.0873
0.2486,-0.0633,0.1316
0.2583,-0.0901,0.1715
0.2788,-0.0731,0.1855
0.3443,-0.0436,0.1069
0.3615,-0.0548,0.0281
0.3235,-0.0891,-0.025
0.3255,-0.1029,-0.0645
0.2719,-0.1155,-0.0805
0.203,-0.0911,-0.0873
0.0988,-0.0956,-0.0744
0.0197,-0.124,-0.0752
-0.0414,-0.1236,-0.1498
-0.0412,-0.1241,-0.2069
-0.0323,-0.0986,-0.1512
0.0145,-0.0406,-0.1549
0.1311,-0.038,-0.1923
0.0979,-0.084,-0.2106
0.0423,-0.1038,-0.2245
0.0029,-0.1141,-0.2339
-0.0161,-0.1746,-0.2098
-0.6109,-0.2847,-0.1954
0.4272,-0.1013,-0.3872
0.1237,-0.1227,-0.0929
0.03,-0.1649,0.1166
0.1306,-0.1393,0.0912
0.1823,-0.0323,-0.1267
0.1556,0.04,-0.2787
0.065,0.0099,-0.253
0.0358,-0.0646,-0.2364
-0.0081,-0.1617,-0.2123
0.0339,-0.1208,-0.2597
0.0402,-0.0344,-0.3335
0.0286,-0.0572,-0.3261
0.0552,-0.0808,-0.3263
0.0627,-0.1323,-0.3053
0.0288,-0.1304,-0.2535
0.0234,-0.0944,-0.2234
-0.0229,-0.0769,-0.1792
0.0239,-0.0824,-0.0947
0.0819,-0.0843,0.0229
0.0817,-0.0735,0.0684
0.1124,-0.057,0.0713
0.1144,-0.0473,-0.0065
0.0883,-0.0564,-0.1098
0.078,-0.0644,-0.172
0.0234,-0.0798,-0.2531
0.0512,-0.0615,-0.3175
0.0777,-0.047,-0.3486
0.0769,-0.041,-0.3682
0.0689,-0.0261,-0.3428
0.0614,-0.0462,-0.2292
0.061,-0.0749,-0.1018
0.068,-0.0652,-0.02
0.105,-0.0747,0.0235
0.0904,-0.0775,-0.0166
0.1261,-0.0573,-0.1257
0.0991,-0.0737,-0.1578
0.1023,-0.054,-0.1516
0.0697,-0.0704,-0.1693
0.0303,-0.0347,-0.1629
0.0106,-0.071,-0.1707
0.0371,-0.0786,-0.1664
0.0728,-0.0882,-0.0833
0.0692,-0.0664,-0.0746
0.0211,-0.0452,-0.1113
