accx,accy,accz
0.2061,0.3718,-0.6935
0.1887,0.3358,-0.8793
0.2485,0.3067,-0.854
0.3762,0.174,-0.6724
0.536,0.1154,-0.463
0.4516,0.0768,-0.2685
0.2072,-0.2236,-0.0778
0.1572,-0.3323,-0.2519
0.1187,-0.3782,-0.6192
0.127,-0.3696,-0.8431
0.2257,-0.3447,-0.7433
0.1964,-0.3729,-0.633
0.0995,-0.4542,-0.5074
0.0369,-0.5046,-0.5013
-0.0799,-0.4986,-0.6094
-0.1626,-0.5172,-0.8078
-0.2337,-0.478,-0.7719
-0.2032,-0.4988,-0.4073
-0.0216,-0.4839,-0.1377
0.1501,-0.4794,-0.2145
0.1964,-0.4269,-0.4483
0.0681,-0.4113,-0.4684
0.1487,-0.4148,-0.4214
0.2522,-0.4022,-0.4291
0.2583,-0.4075,-0.5483
0.2497,-0.4017,-0.6794
0.2456,-0.4409,-0.7565
0.3052,-0.4707,-0.9058
0.3767,-0.4722,-1.1826
0.3101,-0.4943,-1.5091
0.1961,-0.5236,-1.8073
0.2199,-0.5751,-1.9467
0.5659,-0.6218,-1.9807
0.8569,-0.6404,-2.2365
0.8698,-0.8685,-2.5056
0.5165,-1.0148,-2.4684
0.1979,-1.2375,-2.167
0.0221,-1.3571,-1.8463
-0.2721,-1.2764,-1.6721
-0.5776,-1.1081,-1.4279
-0.8356,-0.8412,-1.2987
-0.7371,-0.4964,-1.0771
-0.5034,-0.1433,-0.674
-0.1289,0.2516,0.1264
0.2524,0.3312,1.0189
0.4079,0.2355,2.1647
0.1052,0.2056,3.1001
-0.6287,0.2814,3.8948
-1.2944,0.4592,4.248
-1.8657,0.6854,4.1553
-2.02,0.8157,3.8543
-1.8283,0.6813,3.7156
-1.3644,0.4053,3.9604
-0.8222,0.016,4.4886
-0.5796,-0.4192,4.7109
-0.6523,-0.8725,4.6535
-0.8218,-1.2203,4.3641
-1.0873,-1.3786,3.6739
-1.3166,-1.2806,2.7228
-1.513,-0.9463,1.5248
-1.369,-0.6459,0.6059
-1.0679,-0.2017,-0.1103
-0.7925,0.1192,-0.6238
-0.5951,0.3669,-1.0773
-0.4928,0.47,-1.4226
-0.6051,0.5143,-1.6731
-0.8718,0.4649,-1.6967
-1.1669,0.3529,-1.584
-1.2853,0.2061,-1.4428
-1.405,0.1163,-1.1618
-1.4045,0.0307,-0.9013
-1.3655,-0.1133,-0.6277
-1.3126,-0.1988,-0.4652
-1.2212,-0.2717,-0.301
-1.1392,-0.2916,-0.2449
-1.0607,-0.3116,-0.1987
-0.9778,-0.341,-0.1527
-0.8646,-0.3778,-0.1667
-0.7901,-0.4722,-0.2429
-0.77,-0.5214,-0.3335
-0.7695,-0.5507,-0.2761
-0.6751,-0.5885,-0.2362
-0.7372,-0.5635,-0.2135
-0.7878,-0.5513,-0.1706
-0.8233,-0.5713,-0.2751
-0.8939,-0.5686,-0.3737
-0.9677,-0.5831,-0.5149
-1.028,-0.6209,-0.7137
-1.024,-0.6938,-0.779
-0.9761,-0.7722,-0.7833
-0.9621,-0.8507,-0.715
-0.9254,-0.912,-0.6491
-0.8994,-0.9558,-0.7083
-0.7071,-0.9403,-0.7674
-0.5689,-0.9201,-0.7482
-0.4542,-0.9362,-0.7608
-0.3844,-0.9279,-0.844
-0.3747,-0.9374,-0.9754
-0.3029,-0.9443,-1.1233
-0.189,-0.8565,-1.2127
-0.1181,-0.8118,-1.3165
-0.0387,-0.7618,-1.5668
0.0391,-0.6956,-1.7193
0.1469,-0.6678,-1.8939
0.1851,-0.6805,-2.0908
0.2021,-0.7192,-2.3029
0.1672,-0.7134,-2.3034
0.0868,-0.7469,-2.259
0.0171,-0.8134,-2.2363
-0.1395,-0.889,-2.2233
-0.2841,-0.8896,-2.1699
-0.354,-0.9008,-2.1817
-0.3439,-0.8958,-2.2185
-0.2371,-0.8452,-2.2112
-0.1765,-0.6283,-2.0626
-0.0725,-0.3507,-1.9724
0.1201,-0.0066,-1.9692
0.3306,0.4494,-2.005
0.5555,0.7142,-1.9629
0.7558,0.8265,-1.6176
0.8841,0.9148,-1.0221
1.0096,0.7406,0.0705
1.0101,0.4969,1.3103
0.8434,0.2841,2.7481
0.9375,0.0269,3.9182
0.994,0.0923,4.7046
0.9052,0.4777,4.8802
0.8735,1.0875,4.5466
0.693,1.5494,4.0313
0.3095,1.6159,3.383
-0.0012,1.1899,3.0154
-0.3339,0.3192,3.1007
-0.3965,-0.5663,3.6599
-0.1112,-1.3538,4.7851
0.6038,-1.5879,5.7948
1.8529,-1.3577,6.6105
3.0668,-0.816,6.6432
4.0322,-0.1519,5.5702
4.2231,0.4829,3.9395
4.1352,0.9517,2.1428
3.87,1.1048,0.6241
3.386,1.2907,-0.8442
2.8951,1.4237,-1.9631
2.6561,1.3883,-2.6751
2.4453,1.3577,-2.9917
2.297,1.2148,-3.0192
2.0058,0.9514,-2.8219
1.6873,0.5618,-2.4991
1.3013,0.0725,-2.2505
0.9184,-0.2618,-2.073
0.5393,-0.655,-1.8249
0.2196,-1.0617,-1.5083
-0.0158,-1.4503,-0.9763
-0.1552,-1.875,-0.4589
-0.1394,-2.1225,0.0809
0.2687,-2.183,0.3307
0.6979,-1.916,0.3502
1.1875,-1.8571,0.0971
1.521,-1.6591,-0.0326
1.4658,-1.5703,0.0328
1.0717,-1.5302,-0.0941
0.743,-1.3689,-0.1072
0.5698,-1.1851,-0.1592
0.4018,-0.9759,-0.2506
0.3749,-0.6627,-0.4369
0.4632,-0.3865,-0.6869
0.6522,-0.0763,-0.9203
0.8678,0.2221,-1.0111
1.1087,0.4457,-1.0298
1.3054,0.5124,-1.0126
1.5252,0.5252,-0.9574
1.6481,0.4553,-0.7653
1.7126,0.2751,-0.6508
1.6661,0.2525,-0.6456
1.6682,-0.024,-0.8777
1.7111,-0.1081,-0.9781
1.7672,-0.2263,-1.0668
1.7128,-0.3331,-1.099
1.6322,-0.5029,-1.2604
1.4928,-0.6823,-1.3468
1.2041,-0.6681,-1.321
0.8578,-0.5482,-1.3056
0.5813,-0.4682,-1.265
0.2857,-0.4432,-1.1501
-0.1742,-0.5803,-0.7213
-0.5522,-0.6107,0.0717
-0.5004,-0.4101,0.7896
0.1731,-0.2988,1.3845
1.2215,-0.0996,2.1099
1.9323,0.1705,2.8953
2.1137,0.1103,3.7024
1.7015,-0.1154,4.079
0.8997,-0.3761,4.0077
0.2622,-0.3636,3.5398
-0.0428,0.0308,2.9268
0.1081,0.5317,2.3246
0.3774,1.0753,1.66
0.8065,1.3003,1.1963
1.245,1.4358,1.0035
1.4484,1.2894,1.043
1.3284,0.9326,1.2276
0.9581,0.5181,1.5364
0.468,0.0704,1.7767
0.1046,-0.2007,1.8535
-0.1696,-0.369,1.6658
-0.3232,-0.4229,1.3436
-0.395,-0.3266,0.8452
-0.4154,-0.1999,0.2735
-0.4152,-0.0189,-0.2935
-0.3943,0.0161,-0.3122
-0.1473,0.1211,-0.6663
-0.1806,0.1088,-0.6668
-0.2161,-0.0551,-0.6029
-0.1893,-0.25,-0.4621
-0.1513,-0.394,-0.3698
-0.0563,-0.5138,-0.3652
0.1157,-0.5943,-0.4309
0.329,-0.6675,-0.5423
0.5424,-0.7279,-0.6658
0.6622,-0.8014,-0.7378
0.7298,-0.9133,-0.6867
0.7488,-1.046,-0.6806
0.749,-1.1306,-0.7357
0.7363,-1.0843,-0.8443
0.73,-1.0547,-1.0906
0.6688,-0.9952,-1.3843
0.519,-0.9239,-1.7536
0.4326,-0.9123,-1.7996
0.3389,-0.9497,-1.5655
0.2158,-1.1299,-1.1997
0.0922,-1.2218,-0.8532
-0.0967,-1.3044,-0.7936
-0.2556,-1.3599,-0.9419
-0.3799,-1.3725,-1.1632
-0.4575,-1.3636,-1.4433
-0.4452,-1.3594,-1.6513
-0.3487,-1.3472,-1.7916
-0.2762,-1.2863,-1.787
-0.1453,-1.216,-1.7007
-0.1141,-1.115,-1.7361
-0.0796,-1.0635,-1.7728
-0.0084,-1.0525,-1.7696
-0.0214,-1.0129,-1.6538
-0.0851,-1.0484,-1.4663
-0.0257,-1.0128,-1.2175
0.1054,-0.9075,-0.9792
0.1216,-0.5943,-0.8282
0.0613,-0.1923,-0.8388
0.0622,0.1684,-0.9693
0.0099,0.3409,-1.1729
-0.0388,0.4714,-0.9931
-0.0815,0.5136,-0.5032
-0.0273,0.5167,0.047
-0.0035,0.54,0.7966
0.0803,0.4897,1.5951
0.2314,0.5326,2.5218
0.4285,0.6705,3.1283
0.6714,0.8776,3.2659
0.7863,1.1044,2.7129
0.8838,1.3752,2.0556
1.117,1.4538,1.5923
1.1812,1.5356,1.3407
1.1956,1.6701,1.4802
1.2963,1.6247,1.9666
1.5015,1.3423,2.4928
1.6394,0.9526,2.8884
1.68,0.6323,3.0509
1.6079,0.3216,3.0093
1.5935,0.3676,2.9763
1.5448,0.0612,2.3049
1.4953,0.0775,1.6649
1.4455,0.1797,0.9881
1.4545,0.3058,0.5183
1.5273,0.4396,0.0394
1.5219,0.5538,-0.5001
1.4632,0.67,-1.0851
1.4163,0.6781,-1.3794
1.2402,0.5886,-1.6509
0.9924,0.4881,-1.7898
0.8692,0.3869,-1.7797
0.7865,0.2602,-1.7195
0.8322,0.1671,-1.5555
0.9331,0.1049,-1.4741
1.0291,0.1216,-1.4739
1.1109,0.1156,-1.5519
1.2182,0.0013,-1.6247
1.1074,-0.0588,-1.6076
0.7712,-0.2816,-1.6114
0.378,-0.4879,-1.648
-0.0035,-0.6609,-1.6476
-0.2343,-0.7683,-1.5637
-0.3664,-0.8123,-1.4072
-0.3633,-0.7988,-1.2826
-0.34,-0.7269,-1.2511
-0.2477,-0.6927,-1.2242
-0.2006,-0.6589,-1.1476
-0.2041,-0.7006,-1.0223
-0.2537,-0.7569,-0.9135
-0.3361,-0.7939,-0.8646
-0.4464,-0.8595,-0.8109
-0.4484,-0.8971,-0.8621
-0.365,-0.8813,-0.9673
-0.1896,-0.8679,-1.1475
0.0962,-0.8022,-1.3834
0.2863,-0.749,-1.615
0.4104,-0.765,-1.8175
0.4815,-0.7411,-1.9796
0.5723,-0.7835,-2.1176
0.5998,-0.8003,-2.2783
0.7424,-0.8861,-2.4131
0.9128,-0.9451,-2.3518
1.086,-0.9808,-2.0304
1.2947,-1.0585,-1.524
1.3926,-1.0438,-0.924
1.642,-0.956,-0.4182
1.8541,-0.7766,0.0521
1.8234,-0.5293,0.6235
1.652,-0.3651,1.4149
1.2727,-0.2755,2.2507
0.674,-0.2331,3.2328
0.032,-0.137,3.9413
-0.3776,0.1472,4.5387
-0.423,0.5726,4.8166
0.1143,0.8968,4.7945
0.9965,1.0623,4.7987
1.7875,1.1835,4.9409
1.9956,1.0448,5.1335
1.6598,0.5988,5.23
1.0368,0.1081,4.9472
0.3793,-0.3553,4.29
0.035,-0.5722,3.6337
-0.1733,-0.5891,2.8761
-0.2106,-0.4381,2.1969
-0.2094,-0.2402,1.3549
-0.216,-0.101,0.561
-0.2177,0.0738,-0.3031
-0.2144,0.1839,-1.0067
-0.1073,0.2762,-1.6445
-0.051,0.3566,-2.1316
-0.0536,0.3807,-2.4678
-0.0768,0.3619,-2.6319
0.0362,0.2864,-2.5523
-0.0233,0.1634,-2.2376
-0.1207,-0.1302,-1.7768
-0.2305,-0.439,-1.3815
-0.3328,-0.7088,-0.8771
-0.4425,-1.0006,-0.4747
-0.474,-1.3334,-0.2892
-0.5252,-1.5549,-0.2803
-0.5701,-1.7024,-0.402
-0.5483,-1.7248,-0.4492
-0.2484,-1.6846,-0.3777
0.0607,-1.4553,-0.3801
0.0645,-1.3337,-0.6231
-0.3971,-1.34,-0.9629
-0.8804,-1.6907,-1.014
-1.2761,-2.1119,-0.8747
-1.5049,-2.3162,-0.7129
-1.5117,-2.3663,-0.6062
-1.2022,-2.2464,-0.5623
-0.5686,-1.897,-0.6203
-0.0555,-1.4919,-0.8929
0.3457,-1.0583,-1.2655
0.643,-0.8154,-1.5972
0.79,-0.6058,-1.8652
0.7344,-0.5061,-1.901
0.7186,-0.5178,-1.8944
0.5065,-0.6482,-1.6684
0.3944,-0.6155,-1.4093
0.2936,-0.4894,-1.0763
0.1658,-0.1708,-0.7521
0.1813,0.126,-0.6463
0.438,0.3668,-0.6264
0.6947,0.6043,-0.5506
0.8036,0.7563,-0.3327
0.7482,0.6349,-0.0733
0.5575,0.3686,0.3652
0.5078,0.142,0.934
0.4059,-0.0916,1.6942
0.332,-0.3826,2.3363
0.2792,-0.6047,3.0447
0.2896,-0.5928,3.3776
0.2787,-0.4217,3.2165
0.1787,0.0052,2.6786
0.1775,0.6118,2.083
0.6089,0.9496,1.6206
0.904,1.2321,1.1785
0.9959,1.3613,1.0413
0.9909,1.3779,1.3856
0.8973,1.2096,2.0242
0.8585,0.8048,2.5822
0.7535,0.5001,2.7358
0.7611,0.2134,2.8086
0.9805,0.1063,2.9098
1.3568,0.164,2.8858
1.7199,0.3792,2.7087
2.2044,0.6157,2.2758
2.4151,0.8004,1.6349
2.3371,0.8811,0.7653
2.1389,0.8628,0.0068
1.9166,0.7701,-0.642
1.6899,0.6875,-1.1237
1.4149,0.5264,-1.569
1.1944,0.3996,-1.8574
0.9303,0.197,-2.103
0.727,-0.0418,-2.2564
0.553,-0.2896,-2.2368
0.4496,-0.4739,-2.1614
0.3334,-0.6747,-1.9919
0.3477,-0.7945,-1.7749
0.289,-0.8553,-1.6405
0.2209,-0.9416,-1.6057
0.1232,-1.0506,-1.6549
0.0895,-1.0979,-1.6568
0.0919,-1.0963,-1.6579
-0.0437,-1.1575,-1.6204
0.005,-1.1218,-1.5526
0.1462,-1.0778,-1.3899
0.3527,-0.9945,-1.199
0.5476,-0.8871,-1.0968
0.6712,-0.7477,-1.0152
0.7591,-0.628,-1.061
0.6746,-0.4764,-1.2192
0.5597,-0.3672,-1.4753
0.4455,-0.2764,-1.6951
0.4498,-0.1953,-1.7211
0.5792,-0.2,-1.5644
0.7145,-0.2343,-1.3551
0.9132,-0.2826,-1.0805
1.0396,-0.3484,-0.8333
1.1402,-0.4731,-0.7289
1.2379,-0.5272,-0.7682
1.09,-0.5037,-0.8329
0.8062,-0.3924,-0.9417
0.2438,-0.2632,-1.0708
-0.3765,-0.1524,-1.1418
-0.6423,-0.2243,-1.0471
-0.4817,-0.4507,-0.811
-0.0298,-0.5778,-0.4567
0.3705,-0.5459,0.0411
0.6684,-0.4975,0.846
0.6261,-0.4139,1.8404
-0.1744,0.0341,2.7636
-1.0108,0.7683,3.2944
-1.0141,1.2147,3.3847
-0.6362,1.3361,3.2795
-0.0195,1.2548,3.7172
0.5656,1.1118,4.5505
1.1533,0.7774,5.255
1.6538,-0.1012,5.2453
1.7855,-1.2023,4.9283
1.5519,-2.0168,4.8169
1.2554,-2.6899,4.9618
0.893,-2.8439,4.9564
0.6244,-2.7062,4.5416
0.6283,-2.3631,3.6462
0.6814,-1.8266,1.9811
0.7195,-1.3067,0.3402
0.847,-0.7497,-0.8442
0.7435,-0.3626,-2.0925
0.4446,-0.0341,-3.088
0.0885,0.124,-3.9743
-0.211,0.1529,-4.3969
-0.5119,0.1117,-4.5336
-0.7524,0.0532,-4.3314
-0.9471,0.0075,-3.8506
-0.8778,-0.1102,-3.1451
-0.8025,-0.1641,-2.3334
-0.8003,-0.1254,-1.8047
-0.8524,0.0021,-1.5015
-0.9185,0.1383,-1.3395
-0.8501,0.2564,-1.2144
-0.6211,0.2795,-0.9032
-0.3174,0.1387,-0.3157
-0.1838,-0.0423,0.5816
-0.0439,-0.2622,2.0107
0.1028,-0.5031,3.2184
0.1939,-0.7701,4.2522
0.1062,-0.8679,4.5542
-0.0071,-0.877,4.113
-0.0625,-0.8101,3.2066
-0.202,-0.7171,1.6945
-0.409,-0.6145,0.2791
-0.4127,-0.7042,0.3317
-0.547,-0.3835,-1.7426
-0.578,-0.3609,-2.1869
-0.6168,-0.4384,-2.4715
-0.8012,-0.7132,-2.675
-0.7791,-0.7613,-2.6461
-0.8357,-0.988,-2.5608
-0.8662,-1.2374,-2.535
-0.8733,-1.4862,-2.6146
-0.7945,-1.5976,-2.6854
-0.6189,-1.5501,-2.6564
-0.528,-1.4449,-2.5432
-0.4929,-1.3344,-2.4252
-0.5657,-1.2184,-2.3459
-0.6388,-1.056,-2.1523
-0.8167,-0.866,-1.9597
-0.895,-0.6236,-1.5961
